File: Brass Spectrum_Pb particle.txt
#FORMAT      : EMSA/MAS Spectral Data File
#VERSION     : 1.0
#TITLE       : Spectrum 2
#DATE        : 01-APR-2024
#TIME        : 10:41
#OWNER       :
#NPOINTS     : 2048.0
#NCOLUMNS    : 1.0
#XUNITS      : keV
#YUNITS      : counts
#DATATYPE    : XY
#XPERCHAN    : 0.01
#OFFSET      : -0.2
#SIGNALTYPE  : EDS
#CHOFFSET    : 20.0
#LIVETIME    : 60.0
#REALTIME    : 69.977
#BEAMKV      : 20.0
#MAGCAM      : 2000.0
#XTILTSTGE   : 0.0
#AZIMANGLE   : 0.0
#ELEVANGLE   : 35.0
#XPOSITION mm: 9.7729
#YPOSITION mm: -4.0065
#ZPOSITION mm: 22.0000
##OXINSTPT   : 6
##OXINSTSTROB: 46.45
##OXINSTNDET : 1
##OXINSTELEMS: 8,29,30,82,6,13,17
##OXINSTLABEL: 8, 0.525, O
##OXINSTLABEL: 29, 8.048, Cu
##OXINSTLABEL: 29, 8.905, Cu
##OXINSTLABEL: 29, 0.930, Cu
##OXINSTLABEL: 29, 0.832, Cu
##OXINSTLABEL: 29, 0.811, Cu
##OXINSTLABEL: 30, 8.639, Zn
##OXINSTLABEL: 30, 9.572, Zn
##OXINSTLABEL: 30, 1.012, Zn
##OXINSTLABEL: 30, 0.906, Zn
##OXINSTLABEL: 30, 0.884, Zn
##OXINSTLABEL: 82, 10.552, Pb
##OXINSTLABEL: 82, 12.614, Pb
##OXINSTLABEL: 82, 12.623, Pb
##OXINSTLABEL: 82, 11.349, Pb
##OXINSTLABEL: 82, 14.765, Pb
##OXINSTLABEL: 82, 15.101, Pb
##OXINSTLABEL: 82, 9.185, Pb
##OXINSTLABEL: 82, 2.345, Pb
##OXINSTLABEL: 82, 2.653, Pb
##OXINSTLABEL: 82, 1.823, Pb
##OXINSTLABEL: 82, 0.293, Pb
##OXINSTLABEL: 82, 0.276, Pb
##OXINSTLABEL: 6, 0.277, C
##OXINSTLABEL: 13, 1.487, Al
##OXINSTLABEL: 17, 2.622, Cl
##OXINSTLABEL: 17, 2.816, Cl
##OXINSTLABEL: 17, 0.181, Cl
#SPECTRUM    : Spectral Data Starts Here
-0.20000, 0.0
-0.18000, 0.0
-0.16000, 0.0
-0.14000, 0.0
-0.12000, 0.0
-0.10000, 0.0
-0.08000, 0.0
-0.06000, 26.0
-0.04000, 381.0
-0.02000, 2126.0
0.00000, 4084.0
0.02000, 3544.0
0.04000, 2191.0
0.06000, 1278.0
0.08000, 610.0
0.10000, 242.0
0.12000, 159.0
0.14000, 137.0
0.16000, 178.0
0.18000, 236.0
0.20000, 263.0
0.22000, 380.0
0.24000, 725.0
0.26000, 1253.0
0.28000, 1233.0
0.30000, 750.0
0.32000, 316.0
0.34000, 203.0
0.36000, 196.0
0.38000, 238.0
0.40000, 224.0
0.42000, 255.0
0.44000, 291.0
0.46000, 436.0
0.48000, 978.0
0.50000, 1970.0
0.52000, 2608.0
0.54000, 2163.0
0.56000, 1273.0
0.58000, 768.0
0.60000, 832.0
0.62000, 797.0
0.64000, 598.0
0.66000, 516.0
0.68000, 665.0
0.70000, 709.0
0.72000, 663.0
0.74000, 569.0
0.76000, 579.0
0.78000, 621.0
0.80000, 755.0
0.82000, 799.0
0.84000, 848.0
0.86000, 947.0
0.88000, 1489.0
0.90000, 2509.0
0.92000, 3788.0
0.94000, 4104.0
0.96000, 3188.0
0.98000, 2453.0
1.00000, 2285.0
1.02000, 2221.0
1.04000, 1948.0
1.06000, 1285.0
1.08000, 954.0
1.10000, 732.0
1.12000, 652.0
1.14000, 694.0
1.16000, 663.0
1.18000, 759.0
1.20000, 736.0
1.22000, 724.0
1.24000, 788.0
1.26000, 774.0
1.28000, 815.0
1.30000, 830.0
1.32000, 853.0
1.34000, 825.0
1.36000, 915.0
1.38000, 857.0
1.40000, 889.0
1.42000, 947.0
1.44000, 1161.0
1.46000, 1387.0
1.48000, 1596.0
1.50000, 1609.0
1.52000, 1379.0
1.54000, 1132.0
1.56000, 1054.0
1.58000, 979.0
1.60000, 953.0
1.62000, 947.0
1.64000, 990.0
1.66000, 973.0
1.68000, 1004.0
1.70000, 1022.0
1.72000, 1153.0
1.74000, 1253.0
1.76000, 1373.0
1.78000, 1580.0
1.80000, 1874.0
1.82000, 2234.0
1.84000, 2305.0
1.86000, 2035.0
1.88000, 1615.0
1.90000, 1341.0
1.92000, 1159.0
1.94000, 1135.0
1.96000, 1144.0
1.98000, 1104.0
2.00000, 1080.0
2.02000, 1070.0
2.04000, 1057.0
2.06000, 1111.0
2.08000, 1129.0
2.10000, 1156.0
2.12000, 1251.0
2.14000, 1331.0
2.16000, 1479.0
2.18000, 1420.0
2.20000, 1447.0
2.22000, 1405.0
2.24000, 1699.0
2.26000, 2666.0
2.28000, 5409.0
2.30000, 10819.0
2.32000, 17981.0
2.34000, 23521.0
2.36000, 24752.0
2.38000, 21994.0
2.40000, 18271.0
2.42000, 16948.0
2.44000, 16880.0
2.46000, 15330.0
2.48000, 11588.0
2.50000, 6960.0
2.52000, 3689.0
2.54000, 1982.0
2.56000, 1377.0
2.58000, 1569.0
2.60000, 1845.0
2.62000, 2301.0
2.64000, 2486.0
2.66000, 2193.0
2.68000, 1769.0
2.70000, 1330.0
2.72000, 942.0
2.74000, 788.0
2.76000, 684.0
2.78000, 694.0
2.80000, 736.0
2.82000, 696.0
2.84000, 644.0
2.86000, 717.0
2.88000, 716.0
2.90000, 660.0
2.92000, 706.0
2.94000, 665.0
2.96000, 678.0
2.98000, 687.0
3.00000, 692.0
3.02000, 718.0
3.04000, 771.0
3.06000, 860.0
3.08000, 875.0
3.10000, 898.0
3.12000, 804.0
3.14000, 787.0
3.16000, 794.0
3.18000, 720.0
3.20000, 712.0
3.22000, 645.0
3.24000, 608.0
3.26000, 638.0
3.28000, 594.0
3.30000, 628.0
3.32000, 603.0
3.34000, 644.0
3.36000, 620.0
3.38000, 639.0
3.40000, 677.0
3.42000, 710.0
3.44000, 725.0
3.46000, 774.0
3.48000, 696.0
3.50000, 699.0
3.52000, 704.0
3.54000, 667.0
3.56000, 697.0
3.58000, 701.0
3.60000, 708.0
3.62000, 775.0
3.64000, 768.0
3.66000, 706.0
3.68000, 705.0
3.70000, 713.0
3.72000, 683.0
3.74000, 631.0
3.76000, 650.0
3.78000, 642.0
3.80000, 654.0
3.82000, 680.0
3.84000, 653.0
3.86000, 622.0
3.88000, 654.0
3.90000, 634.0
3.92000, 629.0
3.94000, 635.0
3.96000, 586.0
3.98000, 606.0
4.00000, 623.0
4.02000, 612.0
4.04000, 624.0
4.06000, 624.0
4.08000, 588.0
4.10000, 579.0
4.12000, 580.0
4.14000, 596.0
4.16000, 628.0
4.18000, 638.0
4.20000, 576.0
4.22000, 572.0
4.24000, 595.0
4.26000, 616.0
4.28000, 589.0
4.30000, 591.0
4.32000, 582.0
4.34000, 603.0
4.36000, 607.0
4.38000, 584.0
4.40000, 589.0
4.42000, 592.0
4.44000, 609.0
4.46000, 579.0
4.48000, 597.0
4.50000, 599.0
4.52000, 544.0
4.54000, 557.0
4.56000, 601.0
4.58000, 576.0
4.60000, 599.0
4.62000, 536.0
4.64000, 580.0
4.66000, 624.0
4.68000, 572.0
4.70000, 600.0
4.72000, 574.0
4.74000, 613.0
4.76000, 613.0
4.78000, 566.0
4.80000, 594.0
4.82000, 614.0
4.84000, 583.0
4.86000, 560.0
4.88000, 580.0
4.90000, 554.0
4.92000, 574.0
4.94000, 577.0
4.96000, 589.0
4.98000, 532.0
5.00000, 545.0
5.02000, 567.0
5.04000, 542.0
5.06000, 545.0
5.08000, 556.0
5.10000, 566.0
5.12000, 577.0
5.14000, 533.0
5.16000, 532.0
5.18000, 482.0
5.20000, 528.0
5.22000, 563.0
5.24000, 589.0
5.26000, 555.0
5.28000, 533.0
5.30000, 534.0
5.32000, 526.0
5.34000, 551.0
5.36000, 542.0
5.38000, 540.0
5.40000, 523.0
5.42000, 542.0
5.44000, 557.0
5.46000, 526.0
5.48000, 527.0
5.50000, 508.0
5.52000, 554.0
5.54000, 528.0
5.56000, 526.0
5.58000, 510.0
5.60000, 545.0
5.62000, 539.0
5.64000, 522.0
5.66000, 495.0
5.68000, 550.0
5.70000, 523.0
5.72000, 514.0
5.74000, 508.0
5.76000, 511.0
5.78000, 491.0
5.80000, 502.0
5.82000, 520.0
5.84000, 527.0
5.86000, 505.0
5.88000, 508.0
5.90000, 509.0
5.92000, 520.0
5.94000, 491.0
5.96000, 460.0
5.98000, 521.0
6.00000, 514.0
6.02000, 511.0
6.04000, 493.0
6.06000, 466.0
6.08000, 496.0
6.10000, 479.0
6.12000, 455.0
6.14000, 474.0
6.16000, 471.0
6.18000, 494.0
6.20000, 457.0
6.22000, 482.0
6.24000, 494.0
6.26000, 476.0
6.28000, 484.0
6.30000, 477.0
6.32000, 476.0
6.34000, 505.0
6.36000, 506.0
6.38000, 481.0
6.40000, 470.0
6.42000, 454.0
6.44000, 459.0
6.46000, 484.0
6.48000, 479.0
6.50000, 481.0
6.52000, 465.0
6.54000, 452.0
6.56000, 448.0
6.58000, 436.0
6.60000, 462.0
6.62000, 469.0
6.64000, 458.0
6.66000, 428.0
6.68000, 467.0
6.70000, 451.0
6.72000, 474.0
6.74000, 463.0
6.76000, 444.0
6.78000, 432.0
6.80000, 419.0
6.82000, 455.0
6.84000, 431.0
6.86000, 420.0
6.88000, 410.0
6.90000, 434.0
6.92000, 485.0
6.94000, 495.0
6.96000, 435.0
6.98000, 439.0
7.00000, 395.0
7.02000, 416.0
7.04000, 434.0
7.06000, 427.0
7.08000, 413.0
7.10000, 454.0
7.12000, 418.0
7.14000, 412.0
7.16000, 409.0
7.18000, 428.0
7.20000, 449.0
7.22000, 391.0
7.24000, 418.0
7.26000, 419.0
7.28000, 372.0
7.30000, 396.0
7.32000, 397.0
7.34000, 405.0
7.36000, 400.0
7.38000, 393.0
7.40000, 408.0
7.42000, 419.0
7.44000, 372.0
7.46000, 397.0
7.48000, 427.0
7.50000, 379.0
7.52000, 363.0
7.54000, 396.0
7.56000, 407.0
7.58000, 394.0
7.60000, 366.0
7.62000, 399.0
7.64000, 441.0
7.66000, 366.0
7.68000, 381.0
7.70000, 382.0
7.72000, 399.0
7.74000, 366.0
7.76000, 393.0
7.78000, 383.0
7.80000, 355.0
7.82000, 377.0
7.84000, 385.0
7.86000, 414.0
7.88000, 445.0
7.90000, 542.0
7.92000, 697.0
7.94000, 909.0
7.96000, 1133.0
7.98000, 1449.0
8.00000, 1705.0
8.02000, 1898.0
8.04000, 2002.0
8.06000, 1890.0
8.08000, 1726.0
8.10000, 1374.0
8.12000, 1084.0
8.14000, 814.0
8.16000, 604.0
8.18000, 459.0
8.20000, 383.0
8.22000, 390.0
8.24000, 348.0
8.26000, 344.0
8.28000, 339.0
8.30000, 346.0
8.32000, 386.0
8.34000, 362.0
8.36000, 341.0
8.38000, 365.0
8.40000, 320.0
8.42000, 369.0
8.44000, 382.0
8.46000, 375.0
8.48000, 417.0
8.50000, 480.0
8.52000, 548.0
8.54000, 673.0
8.56000, 813.0
8.58000, 976.0
8.60000, 1185.0
8.62000, 1123.0
8.64000, 1151.0
8.66000, 1010.0
8.68000, 931.0
8.70000, 761.0
8.72000, 617.0
8.74000, 532.0
8.76000, 502.0
8.78000, 406.0
8.80000, 418.0
8.82000, 465.0
8.84000, 472.0
8.86000, 478.0
8.88000, 550.0
8.90000, 530.0
8.92000, 470.0
8.94000, 520.0
8.96000, 458.0
8.98000, 375.0
9.00000, 380.0
9.02000, 366.0
9.04000, 339.0
9.06000, 331.0
9.08000, 334.0
9.10000, 310.0
9.12000, 334.0
9.14000, 355.0
9.16000, 385.0
9.18000, 344.0
9.20000, 380.0
9.22000, 352.0
9.24000, 344.0
9.26000, 290.0
9.28000, 298.0
9.30000, 308.0
9.32000, 306.0
9.34000, 291.0
9.36000, 300.0
9.38000, 278.0
9.40000, 298.0
9.42000, 287.0
9.44000, 289.0
9.46000, 297.0
9.48000, 293.0
9.50000, 307.0
9.52000, 363.0
9.54000, 381.0
9.56000, 351.0
9.58000, 328.0
9.60000, 363.0
9.62000, 325.0
9.64000, 328.0
9.66000, 302.0
9.68000, 295.0
9.70000, 266.0
9.72000, 263.0
9.74000, 275.0
9.76000, 292.0
9.78000, 285.0
9.80000, 264.0
9.82000, 292.0
9.84000, 253.0
9.86000, 250.0
9.88000, 258.0
9.90000, 260.0
9.92000, 247.0
9.94000, 266.0
9.96000, 260.0
9.98000, 252.0
10.00000, 247.0
10.02000, 245.0
10.04000, 255.0
10.06000, 264.0
10.08000, 234.0
10.10000, 300.0
10.12000, 246.0
10.14000, 270.0
10.16000, 241.0
10.18000, 258.0
10.20000, 256.0
10.22000, 255.0
10.24000, 235.0
10.26000, 261.0
10.28000, 261.0
10.30000, 254.0
10.32000, 266.0
10.34000, 328.0
10.36000, 354.0
10.38000, 423.0
10.40000, 495.0
10.42000, 624.0
10.44000, 736.0
10.46000, 872.0
10.48000, 1103.0
10.50000, 1229.0
10.52000, 1355.0
10.54000, 1402.0
10.56000, 1347.0
10.58000, 1310.0
10.60000, 1108.0
10.62000, 892.0
10.64000, 664.0
10.66000, 514.0
10.68000, 392.0
10.70000, 331.0
10.72000, 278.0
10.74000, 243.0
10.76000, 236.0
10.78000, 238.0
10.80000, 223.0
10.82000, 231.0
10.84000, 200.0
10.86000, 212.0
10.88000, 187.0
10.90000, 201.0
10.92000, 199.0
10.94000, 207.0
10.96000, 204.0
10.98000, 191.0
11.00000, 211.0
11.02000, 170.0
11.04000, 233.0
11.06000, 204.0
11.08000, 174.0
11.10000, 205.0
11.12000, 179.0
11.14000, 200.0
11.16000, 209.0
11.18000, 170.0
11.20000, 183.0
11.22000, 199.0
11.24000, 176.0
11.26000, 204.0
11.28000, 210.0
11.30000, 201.0
11.32000, 206.0
11.34000, 188.0
11.36000, 196.0
11.38000, 197.0
11.40000, 170.0
11.42000, 195.0
11.44000, 201.0
11.46000, 214.0
11.48000, 185.0
11.50000, 174.0
11.52000, 184.0
11.54000, 175.0
11.56000, 178.0
11.58000, 158.0
11.60000, 188.0
11.62000, 177.0
11.64000, 152.0
11.66000, 174.0
11.68000, 155.0
11.70000, 174.0
11.72000, 184.0
11.74000, 167.0
11.76000, 166.0
11.78000, 171.0
11.80000, 166.0
11.82000, 139.0
11.84000, 165.0
11.86000, 139.0
11.88000, 165.0
11.90000, 168.0
11.92000, 146.0
11.94000, 174.0
11.96000, 166.0
11.98000, 139.0
12.00000, 186.0
12.02000, 132.0
12.04000, 178.0
12.06000, 173.0
12.08000, 153.0
12.10000, 164.0
12.12000, 184.0
12.14000, 185.0
12.16000, 186.0
12.18000, 165.0
12.20000, 180.0
12.22000, 181.0
12.24000, 163.0
12.26000, 148.0
12.28000, 176.0
12.30000, 162.0
12.32000, 173.0
12.34000, 157.0
12.36000, 136.0
12.38000, 147.0
12.40000, 160.0
12.42000, 160.0
12.44000, 209.0
12.46000, 200.0
12.48000, 255.0
12.50000, 322.0
12.52000, 370.0
12.54000, 463.0
12.56000, 506.0
12.58000, 540.0
12.60000, 560.0
12.62000, 558.0
12.64000, 565.0
12.66000, 498.0
12.68000, 411.0
12.70000, 347.0
12.72000, 313.0
12.74000, 248.0
12.76000, 189.0
12.78000, 178.0
12.80000, 154.0
12.82000, 162.0
12.84000, 152.0
12.86000, 148.0
12.88000, 128.0
12.90000, 156.0
12.92000, 144.0
12.94000, 165.0
12.96000, 154.0
12.98000, 134.0
13.00000, 155.0
13.02000, 144.0
13.04000, 153.0
13.06000, 124.0
13.08000, 131.0
13.10000, 140.0
13.12000, 117.0
13.14000, 120.0
13.16000, 115.0
13.18000, 112.0
13.20000, 104.0
13.22000, 126.0
13.24000, 109.0
13.26000, 123.0
13.28000, 107.0
13.30000, 119.0
13.32000, 113.0
13.34000, 115.0
13.36000, 95.0
13.38000, 121.0
13.40000, 101.0
13.42000, 122.0
13.44000, 101.0
13.46000, 102.0
13.48000, 98.0
13.50000, 99.0
13.52000, 119.0
13.54000, 94.0
13.56000, 106.0
13.58000, 101.0
13.60000, 112.0
13.62000, 114.0
13.64000, 105.0
13.66000, 100.0
13.68000, 97.0
13.70000, 83.0
13.72000, 92.0
13.74000, 101.0
13.76000, 90.0
13.78000, 104.0
13.80000, 88.0
13.82000, 91.0
13.84000, 92.0
13.86000, 101.0
13.88000, 90.0
13.90000, 85.0
13.92000, 84.0
13.94000, 89.0
13.96000, 73.0
13.98000, 97.0
14.00000, 83.0
14.02000, 86.0
14.04000, 85.0
14.06000, 85.0
14.08000, 73.0
14.10000, 81.0
14.12000, 89.0
14.14000, 86.0
14.16000, 84.0
14.18000, 81.0
14.20000, 82.0
14.22000, 99.0
14.24000, 84.0
14.26000, 88.0
14.28000, 96.0
14.30000, 76.0
14.32000, 89.0
14.34000, 84.0
14.36000, 67.0
14.38000, 89.0
14.40000, 88.0
14.42000, 82.0
14.44000, 72.0
14.46000, 80.0
14.48000, 89.0
14.50000, 76.0
14.52000, 75.0
14.54000, 66.0
14.56000, 86.0
14.58000, 94.0
14.60000, 66.0
14.62000, 77.0
14.64000, 89.0
14.66000, 94.0
14.68000, 99.0
14.70000, 94.0
14.72000, 93.0
14.74000, 97.0
14.76000, 92.0
14.78000, 113.0
14.80000, 112.0
14.82000, 81.0
14.84000, 88.0
14.86000, 89.0
14.88000, 74.0
14.90000, 83.0
14.92000, 69.0
14.94000, 69.0
14.96000, 72.0
14.98000, 74.0
15.00000, 60.0
15.02000, 70.0
15.04000, 71.0
15.06000, 61.0
15.08000, 68.0
15.10000, 64.0
15.12000, 67.0
15.14000, 62.0
15.16000, 55.0
15.18000, 61.0
15.20000, 65.0
15.22000, 73.0
15.24000, 79.0
15.26000, 56.0
15.28000, 68.0
15.30000, 56.0
15.32000, 44.0
15.34000, 47.0
15.36000, 46.0
15.38000, 45.0
15.40000, 47.0
15.42000, 53.0
15.44000, 59.0
15.46000, 54.0
15.48000, 62.0
15.50000, 60.0
15.52000, 57.0
15.54000, 42.0
15.56000, 45.0
15.58000, 52.0
15.60000, 56.0
15.62000, 51.0
15.64000, 53.0
15.66000, 56.0
15.68000, 44.0
15.70000, 50.0
15.72000, 46.0
15.74000, 37.0
15.76000, 61.0
15.78000, 53.0
15.80000, 44.0
15.82000, 61.0
15.84000, 36.0
15.86000, 39.0
15.88000, 47.0
15.90000, 44.0
15.92000, 47.0
15.94000, 31.0
15.96000, 35.0
15.98000, 47.0
16.00000, 41.0
16.02000, 35.0
16.04000, 43.0
16.06000, 31.0
16.08000, 44.0
16.10000, 34.0
16.12000, 43.0
16.14000, 42.0
16.16000, 32.0
16.18000, 41.0
16.20000, 28.0
16.22000, 42.0
16.24000, 40.0
16.26000, 44.0
16.28000, 33.0
16.30000, 42.0
16.32000, 43.0
16.34000, 34.0
16.36000, 40.0
16.38000, 35.0
16.40000, 31.0
16.42000, 34.0
16.44000, 28.0
16.46000, 35.0
16.48000, 39.0
16.50000, 28.0
16.52000, 32.0
16.54000, 30.0
16.56000, 28.0
16.58000, 28.0
16.60000, 31.0
16.62000, 31.0
16.64000, 41.0
16.66000, 19.0
16.68000, 26.0
16.70000, 33.0
16.72000, 27.0
16.74000, 30.0
16.76000, 28.0
16.78000, 25.0
16.80000, 26.0
16.82000, 23.0
16.84000, 24.0
16.86000, 27.0
16.88000, 32.0
16.90000, 38.0
16.92000, 25.0
16.94000, 33.0
16.96000, 19.0
16.98000, 24.0
17.00000, 34.0
17.02000, 34.0
17.04000, 24.0
17.06000, 20.0
17.08000, 29.0
17.10000, 30.0
17.12000, 29.0
17.14000, 25.0
17.16000, 24.0
17.18000, 21.0
17.20000, 21.0
17.22000, 21.0
17.24000, 20.0
17.26000, 26.0
17.28000, 23.0
17.30000, 37.0
17.32000, 21.0
17.34000, 26.0
17.36000, 19.0
17.38000, 17.0
17.40000, 23.0
17.42000, 18.0
17.44000, 25.0
17.46000, 26.0
17.48000, 25.0
17.50000, 15.0
17.52000, 20.0
17.54000, 18.0
17.56000, 23.0
17.58000, 15.0
17.60000, 22.0
17.62000, 15.0
17.64000, 23.0
17.66000, 20.0
17.68000, 16.0
17.70000, 16.0
17.72000, 14.0
17.74000, 16.0
17.76000, 10.0
17.78000, 21.0
17.80000, 20.0
17.82000, 13.0
17.84000, 19.0
17.86000, 16.0
17.88000, 16.0
17.90000, 17.0
17.92000, 17.0
17.94000, 18.0
17.96000, 17.0
17.98000, 18.0
18.00000, 15.0
18.02000, 21.0
18.04000, 15.0
18.06000, 14.0
18.08000, 14.0
18.10000, 12.0
18.12000, 12.0
18.14000, 14.0
18.16000, 20.0
18.18000, 18.0
18.20000, 12.0
18.22000, 11.0
18.24000, 13.0
18.26000, 10.0
18.28000, 12.0
18.30000, 12.0
18.32000, 12.0
18.34000, 11.0
18.36000, 12.0
18.38000, 10.0
18.40000, 10.0
18.42000, 7.0
18.44000, 8.0
18.46000, 16.0
18.48000, 11.0
18.50000, 13.0
18.52000, 10.0
18.54000, 14.0
18.56000, 9.0
18.58000, 9.0
18.60000, 9.0
18.62000, 8.0
18.64000, 9.0
18.66000, 8.0
18.68000, 9.0
18.70000, 8.0
18.72000, 9.0
18.74000, 6.0
18.76000, 8.0
18.78000, 6.0
18.80000, 8.0
18.82000, 6.0
18.84000, 6.0
18.86000, 5.0
18.88000, 11.0
18.90000, 6.0
18.92000, 3.0
18.94000, 6.0
18.96000, 4.0
18.98000, 4.0
19.00000, 8.0
19.02000, 7.0
19.04000, 5.0
19.06000, 5.0
19.08000, 4.0
19.10000, 4.0
19.12000, 3.0
19.14000, 9.0
19.16000, 4.0
19.18000, 5.0
19.20000, 1.0
19.22000, 6.0
19.24000, 2.0
19.26000, 5.0
19.28000, 5.0
19.30000, 5.0
19.32000, 3.0
19.34000, 2.0
19.36000, 3.0
19.38000, 4.0
19.40000, 5.0
19.42000, 3.0
19.44000, 2.0
19.46000, 5.0
19.48000, 1.0
19.50000, 2.0
19.52000, 4.0
19.54000, 1.0
19.56000, 0.0
19.58000, 1.0
19.60000, 1.0
19.62000, 1.0
19.64000, 1.0
19.66000, 0.0
19.68000, 0.0
19.70000, 0.0
19.72000, 1.0
19.74000, 1.0
19.76000, 0.0
19.78000, 0.0
19.80000, 0.0
19.82000, 2.0
19.84000, 1.0
19.86000, 0.0
19.88000, 2.0
19.90000, 0.0
19.92000, 3.0
19.94000, 0.0
19.96000, 0.0
19.98000, 1.0
20.00000, 2.0
20.02000, 0.0
20.04000, 0.0
20.06000, 1.0
20.08000, 0.0
20.10000, 0.0
20.12000, 0.0
20.14000, 2.0
20.16000, 1.0
20.18000, 1.0
20.20000, 0.0
20.22000, 1.0
20.24000, 0.0
20.26000, 0.0
20.27000, 0.0
#ENDOFDATA   :