File: Brass Spectrum_Overall.txt
#FORMAT      : EMSA/MAS Spectral Data File
#VERSION     : 1.0
#TITLE       : Spectrum 1
#DATE        : 01-APR-2024
#TIME        : 10:35
#OWNER       :
#NPOINTS     : 2048.0
#NCOLUMNS    : 1.0
#XUNITS      : keV
#YUNITS      : counts
#DATATYPE    : XY
#XPERCHAN    : 0.01
#OFFSET      : -0.2
#SIGNALTYPE  : EDS
#CHOFFSET    : 20.0
#LIVETIME    : 59.998
#REALTIME    : 65.6222
#BEAMKV      : 20.0
#MAGCAM      : 2000.0
#XTILTSTGE   : 0.0
#AZIMANGLE   : 0.0
#ELEVANGLE   : 35.0
#XPOSITION mm: 9.7729
#YPOSITION mm: -4.0065
#ZPOSITION mm: 22.0000
##OXINSTPT   : 6
##OXINSTSTROB: 46.41
##OXINSTNDET : 1
##OXINSTELEMS: 29,30,82,6,8,17,13,26
##OXINSTLABEL: 29, 8.048, Cu
##OXINSTLABEL: 29, 8.905, Cu
##OXINSTLABEL: 29, 0.930, Cu
##OXINSTLABEL: 29, 0.832, Cu
##OXINSTLABEL: 29, 0.811, Cu
##OXINSTLABEL: 30, 8.639, Zn
##OXINSTLABEL: 30, 9.572, Zn
##OXINSTLABEL: 30, 1.012, Zn
##OXINSTLABEL: 30, 0.906, Zn
##OXINSTLABEL: 30, 0.884, Zn
##OXINSTLABEL: 82, 10.552, Pb
##OXINSTLABEL: 82, 12.614, Pb
##OXINSTLABEL: 82, 12.623, Pb
##OXINSTLABEL: 82, 11.349, Pb
##OXINSTLABEL: 82, 14.765, Pb
##OXINSTLABEL: 82, 15.101, Pb
##OXINSTLABEL: 82, 9.185, Pb
##OXINSTLABEL: 82, 2.345, Pb
##OXINSTLABEL: 82, 2.653, Pb
##OXINSTLABEL: 82, 1.823, Pb
##OXINSTLABEL: 82, 0.293, Pb
##OXINSTLABEL: 82, 0.276, Pb
##OXINSTLABEL: 6, 0.277, C
##OXINSTLABEL: 8, 0.525, O
##OXINSTLABEL: 17, 2.622, Cl
##OXINSTLABEL: 17, 2.816, Cl
##OXINSTLABEL: 17, 0.181, Cl
##OXINSTLABEL: 13, 1.487, Al
##OXINSTLABEL: 26, 6.404, Fe
##OXINSTLABEL: 26, 7.058, Fe
##OXINSTLABEL: 26, 0.703, Fe
##OXINSTLABEL: 26, 0.615, Fe
#SPECTRUM    : Spectral Data Starts Here
-0.20000, 0.0
-0.18000, 0.0
-0.16000, 0.0
-0.14000, 0.0
-0.12000, 0.0
-0.10000, 0.0
-0.08000, 0.0
-0.06000, 22.0
-0.04000, 400.0
-0.02000, 2191.0
0.00000, 4086.0
0.02000, 3584.0
0.04000, 2246.0
0.06000, 1361.0
0.08000, 611.0
0.10000, 211.0
0.12000, 100.0
0.14000, 81.0
0.16000, 86.0
0.18000, 84.0
0.20000, 97.0
0.22000, 155.0
0.24000, 232.0
0.26000, 408.0
0.28000, 403.0
0.30000, 239.0
0.32000, 134.0
0.34000, 102.0
0.36000, 114.0
0.38000, 138.0
0.40000, 157.0
0.42000, 185.0
0.44000, 195.0
0.46000, 231.0
0.48000, 419.0
0.50000, 573.0
0.52000, 722.0
0.54000, 634.0
0.56000, 444.0
0.58000, 407.0
0.60000, 368.0
0.62000, 417.0
0.64000, 443.0
0.66000, 431.0
0.68000, 538.0
0.70000, 561.0
0.72000, 593.0
0.74000, 726.0
0.76000, 943.0
0.78000, 1482.0
0.80000, 2174.0
0.82000, 2610.0
0.84000, 2434.0
0.86000, 3136.0
0.88000, 6283.0
0.90000, 13347.0
0.92000, 20959.0
0.94000, 22021.0
0.96000, 15242.0
0.98000, 8816.0
1.00000, 6311.0
1.02000, 5692.0
1.04000, 4352.0
1.06000, 2419.0
1.08000, 1071.0
1.10000, 513.0
1.12000, 299.0
1.14000, 281.0
1.16000, 206.0
1.18000, 252.0
1.20000, 218.0
1.22000, 237.0
1.24000, 231.0
1.26000, 262.0
1.28000, 250.0
1.30000, 264.0
1.32000, 265.0
1.34000, 276.0
1.36000, 273.0
1.38000, 292.0
1.40000, 306.0
1.42000, 292.0
1.44000, 321.0
1.46000, 340.0
1.48000, 360.0
1.50000, 379.0
1.52000, 386.0
1.54000, 333.0
1.56000, 330.0
1.58000, 309.0
1.60000, 299.0
1.62000, 330.0
1.64000, 310.0
1.66000, 328.0
1.68000, 320.0
1.70000, 345.0
1.72000, 355.0
1.74000, 394.0
1.76000, 367.0
1.78000, 398.0
1.80000, 422.0
1.82000, 404.0
1.84000, 419.0
1.86000, 416.0
1.88000, 384.0
1.90000, 366.0
1.92000, 356.0
1.94000, 333.0
1.96000, 345.0
1.98000, 366.0
2.00000, 408.0
2.02000, 375.0
2.04000, 376.0
2.06000, 393.0
2.08000, 409.0
2.10000, 387.0
2.12000, 379.0
2.14000, 438.0
2.16000, 411.0
2.18000, 395.0
2.20000, 415.0
2.22000, 402.0
2.24000, 428.0
2.26000, 459.0
2.28000, 549.0
2.30000, 749.0
2.32000, 948.0
2.34000, 1104.0
2.36000, 1211.0
2.38000, 1055.0
2.40000, 930.0
2.42000, 883.0
2.44000, 900.0
2.46000, 879.0
2.48000, 707.0
2.50000, 635.0
2.52000, 529.0
2.54000, 422.0
2.56000, 450.0
2.58000, 461.0
2.60000, 499.0
2.62000, 537.0
2.64000, 519.0
2.66000, 506.0
2.68000, 476.0
2.70000, 431.0
2.72000, 414.0
2.74000, 427.0
2.76000, 390.0
2.78000, 403.0
2.80000, 405.0
2.82000, 403.0
2.84000, 392.0
2.86000, 423.0
2.88000, 398.0
2.90000, 381.0
2.92000, 404.0
2.94000, 379.0
2.96000, 376.0
2.98000, 371.0
3.00000, 410.0
3.02000, 384.0
3.04000, 414.0
3.06000, 398.0
3.08000, 424.0
3.10000, 428.0
3.12000, 385.0
3.14000, 384.0
3.16000, 410.0
3.18000, 386.0
3.20000, 395.0
3.22000, 382.0
3.24000, 376.0
3.26000, 398.0
3.28000, 373.0
3.30000, 364.0
3.32000, 405.0
3.34000, 391.0
3.36000, 397.0
3.38000, 413.0
3.40000, 379.0
3.42000, 379.0
3.44000, 393.0
3.46000, 382.0
3.48000, 384.0
3.50000, 378.0
3.52000, 377.0
3.54000, 347.0
3.56000, 382.0
3.58000, 385.0
3.60000, 394.0
3.62000, 386.0
3.64000, 357.0
3.66000, 377.0
3.68000, 376.0
3.70000, 338.0
3.72000, 381.0
3.74000, 373.0
3.76000, 352.0
3.78000, 373.0
3.80000, 363.0
3.82000, 364.0
3.84000, 303.0
3.86000, 346.0
3.88000, 345.0
3.90000, 328.0
3.92000, 387.0
3.94000, 339.0
3.96000, 347.0
3.98000, 331.0
4.00000, 340.0
4.02000, 335.0
4.04000, 362.0
4.06000, 333.0
4.08000, 346.0
4.10000, 330.0
4.12000, 335.0
4.14000, 320.0
4.16000, 343.0
4.18000, 318.0
4.20000, 309.0
4.22000, 286.0
4.24000, 336.0
4.26000, 330.0
4.28000, 314.0
4.30000, 329.0
4.32000, 313.0
4.34000, 320.0
4.36000, 289.0
4.38000, 314.0
4.40000, 308.0
4.42000, 305.0
4.44000, 316.0
4.46000, 295.0
4.48000, 312.0
4.50000, 324.0
4.52000, 306.0
4.54000, 333.0
4.56000, 302.0
4.58000, 288.0
4.60000, 301.0
4.62000, 294.0
4.64000, 314.0
4.66000, 302.0
4.68000, 267.0
4.70000, 286.0
4.72000, 280.0
4.74000, 298.0
4.76000, 291.0
4.78000, 272.0
4.80000, 295.0
4.82000, 279.0
4.84000, 266.0
4.86000, 267.0
4.88000, 274.0
4.90000, 293.0
4.92000, 277.0
4.94000, 259.0
4.96000, 260.0
4.98000, 260.0
5.00000, 286.0
5.02000, 270.0
5.04000, 266.0
5.06000, 280.0
5.08000, 270.0
5.10000, 263.0
5.12000, 258.0
5.14000, 294.0
5.16000, 278.0
5.18000, 245.0
5.20000, 253.0
5.22000, 265.0
5.24000, 247.0
5.26000, 239.0
5.28000, 250.0
5.30000, 268.0
5.32000, 262.0
5.34000, 244.0
5.36000, 238.0
5.38000, 269.0
5.40000, 257.0
5.42000, 244.0
5.44000, 261.0
5.46000, 248.0
5.48000, 239.0
5.50000, 231.0
5.52000, 240.0
5.54000, 238.0
5.56000, 258.0
5.58000, 228.0
5.60000, 199.0
5.62000, 216.0
5.64000, 249.0
5.66000, 231.0
5.68000, 220.0
5.70000, 230.0
5.72000, 213.0
5.74000, 206.0
5.76000, 224.0
5.78000, 231.0
5.80000, 225.0
5.82000, 228.0
5.84000, 224.0
5.86000, 205.0
5.88000, 224.0
5.90000, 236.0
5.92000, 204.0
5.94000, 199.0
5.96000, 195.0
5.98000, 211.0
6.00000, 225.0
6.02000, 208.0
6.04000, 207.0
6.06000, 187.0
6.08000, 193.0
6.10000, 203.0
6.12000, 192.0
6.14000, 179.0
6.16000, 203.0
6.18000, 204.0
6.20000, 218.0
6.22000, 180.0
6.24000, 204.0
6.26000, 215.0
6.28000, 212.0
6.30000, 208.0
6.32000, 221.0
6.34000, 245.0
6.36000, 234.0
6.38000, 262.0
6.40000, 273.0
6.42000, 233.0
6.44000, 229.0
6.46000, 226.0
6.48000, 187.0
6.50000, 203.0
6.52000, 185.0
6.54000, 154.0
6.56000, 212.0
6.58000, 186.0
6.60000, 211.0
6.62000, 187.0
6.64000, 196.0
6.66000, 187.0
6.68000, 172.0
6.70000, 179.0
6.72000, 178.0
6.74000, 169.0
6.76000, 187.0
6.78000, 199.0
6.80000, 173.0
6.82000, 213.0
6.84000, 155.0
6.86000, 187.0
6.88000, 156.0
6.90000, 181.0
6.92000, 172.0
6.94000, 191.0
6.96000, 182.0
6.98000, 171.0
7.00000, 180.0
7.02000, 178.0
7.04000, 196.0
7.06000, 180.0
7.08000, 189.0
7.10000, 163.0
7.12000, 168.0
7.14000, 161.0
7.16000, 163.0
7.18000, 162.0
7.20000, 158.0
7.22000, 146.0
7.24000, 169.0
7.26000, 157.0
7.28000, 155.0
7.30000, 159.0
7.32000, 177.0
7.34000, 163.0
7.36000, 157.0
7.38000, 169.0
7.40000, 174.0
7.42000, 155.0
7.44000, 177.0
7.46000, 141.0
7.48000, 165.0
7.50000, 160.0
7.52000, 163.0
7.54000, 167.0
7.56000, 141.0
7.58000, 150.0
7.60000, 151.0
7.62000, 142.0
7.64000, 157.0
7.66000, 168.0
7.68000, 159.0
7.70000, 146.0
7.72000, 154.0
7.74000, 149.0
7.76000, 141.0
7.78000, 171.0
7.80000, 177.0
7.82000, 186.0
7.84000, 222.0
7.86000, 223.0
7.88000, 358.0
7.90000, 582.0
7.92000, 959.0
7.94000, 1637.0
7.96000, 2457.0
7.98000, 3364.0
8.00000, 4414.0
8.02000, 4923.0
8.04000, 5346.0
8.06000, 4947.0
8.08000, 4297.0
8.10000, 3337.0
8.12000, 2342.0
8.14000, 1558.0
8.16000, 965.0
8.18000, 551.0
8.20000, 311.0
8.22000, 221.0
8.24000, 177.0
8.26000, 148.0
8.28000, 159.0
8.30000, 145.0
8.32000, 107.0
8.34000, 136.0
8.36000, 134.0
8.38000, 144.0
8.40000, 136.0
8.42000, 169.0
8.44000, 171.0
8.46000, 222.0
8.48000, 309.0
8.50000, 480.0
8.52000, 747.0
8.54000, 1069.0
8.56000, 1504.0
8.58000, 1949.0
8.60000, 2323.0
8.62000, 2545.0
8.64000, 2430.0
8.66000, 2182.0
8.68000, 1843.0
8.70000, 1337.0
8.72000, 1023.0
8.74000, 688.0
8.76000, 512.0
8.78000, 400.0
8.80000, 416.0
8.82000, 443.0
8.84000, 560.0
8.86000, 675.0
8.88000, 771.0
8.90000, 758.0
8.92000, 780.0
8.94000, 700.0
8.96000, 595.0
8.98000, 432.0
9.00000, 327.0
9.02000, 242.0
9.04000, 167.0
9.06000, 121.0
9.08000, 144.0
9.10000, 111.0
9.12000, 118.0
9.14000, 108.0
9.16000, 107.0
9.18000, 123.0
9.20000, 109.0
9.22000, 126.0
9.24000, 106.0
9.26000, 91.0
9.28000, 100.0
9.30000, 110.0
9.32000, 88.0
9.34000, 103.0
9.36000, 90.0
9.38000, 115.0
9.40000, 111.0
9.42000, 143.0
9.44000, 159.0
9.46000, 167.0
9.48000, 234.0
9.50000, 271.0
9.52000, 312.0
9.54000, 334.0
9.56000, 425.0
9.58000, 367.0
9.60000, 343.0
9.62000, 310.0
9.64000, 232.0
9.66000, 212.0
9.68000, 154.0
9.70000, 122.0
9.72000, 101.0
9.74000, 92.0
9.76000, 105.0
9.78000, 97.0
9.80000, 95.0
9.82000, 89.0
9.84000, 93.0
9.86000, 73.0
9.88000, 67.0
9.90000, 104.0
9.92000, 72.0
9.94000, 75.0
9.96000, 96.0
9.98000, 77.0
10.00000, 103.0
10.02000, 78.0
10.04000, 79.0
10.06000, 69.0
10.08000, 71.0
10.10000, 81.0
10.12000, 91.0
10.14000, 79.0
10.16000, 65.0
10.18000, 64.0
10.20000, 69.0
10.22000, 82.0
10.24000, 79.0
10.26000, 70.0
10.28000, 73.0
10.30000, 70.0
10.32000, 70.0
10.34000, 82.0
10.36000, 95.0
10.38000, 82.0
10.40000, 101.0
10.42000, 93.0
10.44000, 88.0
10.46000, 110.0
10.48000, 116.0
10.50000, 130.0
10.52000, 118.0
10.54000, 120.0
10.56000, 152.0
10.58000, 117.0
10.60000, 109.0
10.62000, 86.0
10.64000, 90.0
10.66000, 71.0
10.68000, 67.0
10.70000, 70.0
10.72000, 78.0
10.74000, 96.0
10.76000, 71.0
10.78000, 81.0
10.80000, 62.0
10.82000, 62.0
10.84000, 68.0
10.86000, 63.0
10.88000, 68.0
10.90000, 72.0
10.92000, 67.0
10.94000, 60.0
10.96000, 72.0
10.98000, 50.0
11.00000, 67.0
11.02000, 80.0
11.04000, 63.0
11.06000, 88.0
11.08000, 70.0
11.10000, 60.0
11.12000, 60.0
11.14000, 68.0
11.16000, 53.0
11.18000, 66.0
11.20000, 65.0
11.22000, 67.0
11.24000, 65.0
11.26000, 63.0
11.28000, 73.0
11.30000, 59.0
11.32000, 62.0
11.34000, 56.0
11.36000, 67.0
11.38000, 56.0
11.40000, 72.0
11.42000, 63.0
11.44000, 58.0
11.46000, 47.0
11.48000, 48.0
11.50000, 62.0
11.52000, 69.0
11.54000, 57.0
11.56000, 53.0
11.58000, 60.0
11.60000, 77.0
11.62000, 66.0
11.64000, 53.0
11.66000, 54.0
11.68000, 56.0
11.70000, 54.0
11.72000, 59.0
11.74000, 70.0
11.76000, 60.0
11.78000, 53.0
11.80000, 65.0
11.82000, 56.0
11.84000, 60.0
11.86000, 56.0
11.88000, 55.0
11.90000, 45.0
11.92000, 54.0
11.94000, 56.0
11.96000, 57.0
11.98000, 49.0
12.00000, 53.0
12.02000, 41.0
12.04000, 54.0
12.06000, 52.0
12.08000, 50.0
12.10000, 42.0
12.12000, 51.0
12.14000, 40.0
12.16000, 55.0
12.18000, 41.0
12.20000, 38.0
12.22000, 58.0
12.24000, 50.0
12.26000, 51.0
12.28000, 56.0
12.30000, 48.0
12.32000, 54.0
12.34000, 47.0
12.36000, 53.0
12.38000, 52.0
12.40000, 54.0
12.42000, 52.0
12.44000, 41.0
12.46000, 49.0
12.48000, 50.0
12.50000, 40.0
12.52000, 60.0
12.54000, 57.0
12.56000, 51.0
12.58000, 59.0
12.60000, 74.0
12.62000, 52.0
12.64000, 68.0
12.66000, 67.0
12.68000, 53.0
12.70000, 54.0
12.72000, 52.0
12.74000, 56.0
12.76000, 46.0
12.78000, 49.0
12.80000, 51.0
12.82000, 49.0
12.84000, 52.0
12.86000, 44.0
12.88000, 45.0
12.90000, 45.0
12.92000, 56.0
12.94000, 39.0
12.96000, 39.0
12.98000, 38.0
13.00000, 49.0
13.02000, 35.0
13.04000, 41.0
13.06000, 43.0
13.08000, 36.0
13.10000, 45.0
13.12000, 35.0
13.14000, 35.0
13.16000, 38.0
13.18000, 33.0
13.20000, 44.0
13.22000, 37.0
13.24000, 44.0
13.26000, 40.0
13.28000, 38.0
13.30000, 55.0
13.32000, 47.0
13.34000, 28.0
13.36000, 30.0
13.38000, 28.0
13.40000, 41.0
13.42000, 27.0
13.44000, 38.0
13.46000, 39.0
13.48000, 37.0
13.50000, 37.0
13.52000, 31.0
13.54000, 44.0
13.56000, 30.0
13.58000, 28.0
13.60000, 28.0
13.62000, 39.0
13.64000, 36.0
13.66000, 31.0
13.68000, 40.0
13.70000, 32.0
13.72000, 31.0
13.74000, 39.0
13.76000, 22.0
13.78000, 33.0
13.80000, 33.0
13.82000, 30.0
13.84000, 37.0
13.86000, 31.0
13.88000, 38.0
13.90000, 24.0
13.92000, 28.0
13.94000, 27.0
13.96000, 33.0
13.98000, 33.0
14.00000, 28.0
14.02000, 34.0
14.04000, 24.0
14.06000, 38.0
14.08000, 31.0
14.10000, 35.0
14.12000, 33.0
14.14000, 29.0
14.16000, 35.0
14.18000, 32.0
14.20000, 26.0
14.22000, 25.0
14.24000, 32.0
14.26000, 34.0
14.28000, 25.0
14.30000, 27.0
14.32000, 40.0
14.34000, 35.0
14.36000, 29.0
14.38000, 25.0
14.40000, 21.0
14.42000, 30.0
14.44000, 20.0
14.46000, 21.0
14.48000, 26.0
14.50000, 19.0
14.52000, 28.0
14.54000, 23.0
14.56000, 22.0
14.58000, 26.0
14.60000, 22.0
14.62000, 25.0
14.64000, 21.0
14.66000, 20.0
14.68000, 27.0
14.70000, 16.0
14.72000, 30.0
14.74000, 28.0
14.76000, 24.0
14.78000, 29.0
14.80000, 22.0
14.82000, 19.0
14.84000, 21.0
14.86000, 21.0
14.88000, 29.0
14.90000, 18.0
14.92000, 28.0
14.94000, 28.0
14.96000, 14.0
14.98000, 20.0
15.00000, 19.0
15.02000, 26.0
15.04000, 27.0
15.06000, 26.0
15.08000, 19.0
15.10000, 16.0
15.12000, 24.0
15.14000, 22.0
15.16000, 21.0
15.18000, 21.0
15.20000, 23.0
15.22000, 13.0
15.24000, 18.0
15.26000, 13.0
15.28000, 19.0
15.30000, 11.0
15.32000, 18.0
15.34000, 15.0
15.36000, 16.0
15.38000, 21.0
15.40000, 14.0
15.42000, 18.0
15.44000, 16.0
15.46000, 19.0
15.48000, 10.0
15.50000, 15.0
15.52000, 16.0
15.54000, 14.0
15.56000, 17.0
15.58000, 12.0
15.60000, 18.0
15.62000, 13.0
15.64000, 14.0
15.66000, 12.0
15.68000, 18.0
15.70000, 17.0
15.72000, 20.0
15.74000, 13.0
15.76000, 17.0
15.78000, 11.0
15.80000, 15.0
15.82000, 18.0
15.84000, 13.0
15.86000, 8.0
15.88000, 13.0
15.90000, 10.0
15.92000, 8.0
15.94000, 13.0
15.96000, 13.0
15.98000, 11.0
16.00000, 21.0
16.02000, 12.0
16.04000, 16.0
16.06000, 21.0
16.08000, 16.0
16.10000, 18.0
16.12000, 11.0
16.14000, 13.0
16.16000, 13.0
16.18000, 19.0
16.20000, 15.0
16.22000, 15.0
16.24000, 10.0
16.26000, 11.0
16.28000, 15.0
16.30000, 11.0
16.32000, 10.0
16.34000, 10.0
16.36000, 17.0
16.38000, 15.0
16.40000, 16.0
16.42000, 15.0
16.44000, 10.0
16.46000, 14.0
16.48000, 13.0
16.50000, 10.0
16.52000, 11.0
16.54000, 15.0
16.56000, 8.0
16.58000, 13.0
16.60000, 12.0
16.62000, 14.0
16.64000, 14.0
16.66000, 8.0
16.68000, 16.0
16.70000, 12.0
16.72000, 14.0
16.74000, 13.0
16.76000, 9.0
16.78000, 12.0
16.80000, 6.0
16.82000, 11.0
16.84000, 10.0
16.86000, 11.0
16.88000, 8.0
16.90000, 11.0
16.92000, 13.0
16.94000, 12.0
16.96000, 18.0
16.98000, 12.0
17.00000, 6.0
17.02000, 8.0
17.04000, 7.0
17.06000, 9.0
17.08000, 10.0
17.10000, 6.0
17.12000, 9.0
17.14000, 4.0
17.16000, 7.0
17.18000, 8.0
17.20000, 11.0
17.22000, 10.0
17.24000, 12.0
17.26000, 8.0
17.28000, 8.0
17.30000, 4.0
17.32000, 9.0
17.34000, 9.0
17.36000, 8.0
17.38000, 10.0
17.40000, 6.0
17.42000, 5.0
17.44000, 7.0
17.46000, 6.0
17.48000, 7.0
17.50000, 6.0
17.52000, 8.0
17.54000, 13.0
17.56000, 8.0
17.58000, 7.0
17.60000, 5.0
17.62000, 6.0
17.64000, 6.0
17.66000, 4.0
17.68000, 6.0
17.70000, 7.0
17.72000, 8.0
17.74000, 5.0
17.76000, 9.0
17.78000, 8.0
17.80000, 7.0
17.82000, 6.0
17.84000, 4.0
17.86000, 6.0
17.88000, 4.0
17.90000, 5.0
17.92000, 6.0
17.94000, 3.0
17.96000, 6.0
17.98000, 3.0
18.00000, 4.0
18.02000, 3.0
18.04000, 4.0
18.06000, 4.0
18.08000, 6.0
18.10000, 8.0
18.12000, 3.0
18.14000, 7.0
18.16000, 3.0
18.18000, 6.0
18.20000, 5.0
18.22000, 3.0
18.24000, 3.0
18.26000, 5.0
18.28000, 5.0
18.30000, 4.0
18.32000, 4.0
18.34000, 3.0
18.36000, 6.0
18.38000, 2.0
18.40000, 3.0
18.42000, 4.0
18.44000, 5.0
18.46000, 4.0
18.48000, 5.0
18.50000, 5.0
18.52000, 2.0
18.54000, 6.0
18.56000, 5.0
18.58000, 3.0
18.60000, 6.0
18.62000, 3.0
18.64000, 4.0
18.66000, 3.0
18.68000, 2.0
18.70000, 1.0
18.72000, 0.0
18.74000, 3.0
18.76000, 2.0
18.78000, 3.0
18.80000, 3.0
18.82000, 4.0
18.84000, 4.0
18.86000, 3.0
18.88000, 4.0
18.90000, 2.0
18.92000, 2.0
18.94000, 3.0
18.96000, 4.0
18.98000, 1.0
19.00000, 3.0
19.02000, 2.0
19.04000, 3.0
19.06000, 3.0
19.08000, 2.0
19.10000, 2.0
19.12000, 2.0
19.14000, 4.0
19.16000, 1.0
19.18000, 0.0
19.20000, 1.0
19.22000, 2.0
19.24000, 1.0
19.26000, 0.0
19.28000, 1.0
19.30000, 1.0
19.32000, 0.0
19.34000, 1.0
19.36000, 0.0
19.38000, 0.0
19.40000, 0.0
19.42000, 2.0
19.44000, 0.0
19.46000, 1.0
19.48000, 1.0
19.50000, 1.0
19.52000, 1.0
19.54000, 1.0
19.56000, 1.0
19.58000, 0.0
19.60000, 0.0
19.62000, 0.0
19.64000, 0.0
19.66000, 0.0
19.68000, 0.0
19.70000, 0.0
19.72000, 0.0
19.74000, 0.0
19.76000, 0.0
19.78000, 0.0
19.80000, 0.0
19.82000, 0.0
19.84000, 0.0
19.86000, 0.0
19.88000, 1.0
19.90000, 1.0
19.92000, 0.0
19.94000, 0.0
19.96000, 0.0
19.98000, 0.0
20.00000, 0.0
20.02000, 0.0
20.04000, 0.0
20.06000, 0.0
20.08000, 0.0
20.10000, 1.0
20.12000, 0.0
20.14000, 0.0
20.16000, 1.0
20.18000, 0.0
20.20000, 0.0
20.22000, 0.0
20.24000, 0.0
20.26000, 0.0
20.27000, 0.0
#ENDOFDATA   :